onset	duration	sample	value	event_code	user_answer	correct_answer	target_count
0	n/a	0	break cnt	break cnt	n/a	n/a	8
64.624	n/a	32312	seqLearning_start	91	n/a	n/a	8
70.892	n/a	35446	learningBlock_1	31	n/a	n/a	8
70.926	n/a	35463	dot_no1_ON	11	n/a	n/a	8
71.514	n/a	35757	dot_no1_OFF	21	n/a	n/a	8
72.834	n/a	36417	dot_no6_ON	16	n/a	n/a	8
73.414	n/a	36707	dot_no6_OFF	26	n/a	n/a	8
74.734	n/a	37367	dot_no4_ON	14	n/a	n/a	8
75.314	n/a	37657	dot_no4_OFF	24	n/a	n/a	8
76.634	n/a	38317	dot_no2_ON	12	n/a	n/a	8
77.214	n/a	38607	dot_no2_OFF	22	n/a	n/a	8
78.534	n/a	39267	dot_no7_ON	17	n/a	n/a	8
79.114	n/a	39557	dot_no7_OFF	27	n/a	n/a	8
80.434	n/a	40217	dot_no3_ON	13	n/a	n/a	8
81.014	n/a	40507	dot_no3_OFF	23	n/a	n/a	8
82.334	n/a	41167	dot_no8_ON	18	n/a	n/a	8
82.914	n/a	41457	dot_no8_OFF	28	n/a	n/a	8
84.234	n/a	42117	dot_no5_ON	15	n/a	n/a	8
84.814	n/a	42407	dot_no5_OFF	25	n/a	n/a	8
86.134	n/a	43067	dot_no2_ON	12	n/a	n/a	8
86.714	n/a	43357	dot_no2_OFF	22	n/a	n/a	8
88.034	n/a	44017	dot_no7_ON	17	n/a	n/a	8
88.614	n/a	44307	dot_no7_OFF	27	2-6-8-3-7-2-5-1-4-3	1-6-4-2-7-3-8-5-2-7	8
168.336	n/a	84168	learningBlock_2	32	n/a	n/a	8
168.346	n/a	84173	dot_no1_ON	11	n/a	n/a	8
168.926	n/a	84463	dot_no1_OFF	21	n/a	n/a	8
170.246	n/a	85123	dot_no6_ON	16	n/a	n/a	8
170.836	n/a	85418	dot_no6_OFF	26	n/a	n/a	8
172.156	n/a	86078	dot_no4_ON	14	n/a	n/a	8
172.736	n/a	86368	dot_no4_OFF	24	n/a	n/a	8
174.056	n/a	87028	dot_no2_ON	12	n/a	n/a	8
174.636	n/a	87318	dot_no2_OFF	22	n/a	n/a	8
175.956	n/a	87978	dot_no7_ON	17	n/a	n/a	8
176.536	n/a	88268	dot_no7_OFF	27	n/a	n/a	8
177.856	n/a	88928	dot_no3_ON	13	n/a	n/a	8
178.436	n/a	89218	dot_no3_OFF	23	n/a	n/a	8
179.756	n/a	89878	dot_no8_ON	18	n/a	n/a	8
180.346	n/a	90173	dot_no8_OFF	28	n/a	n/a	8
181.666	n/a	90833	dot_no5_ON	15	n/a	n/a	8
182.256	n/a	91128	dot_no5_OFF	25	n/a	n/a	8
183.576	n/a	91788	dot_no2_ON	12	n/a	n/a	8
184.156	n/a	92078	dot_no2_OFF	22	n/a	n/a	8
185.476	n/a	92738	dot_no7_ON	17	n/a	n/a	8
186.056	n/a	93028	dot_no7_OFF	27	3-1-6-7-2-5-7-1-6-2	1-6-4-2-7-3-8-5-2-7	8
233.208	n/a	116604	learningBlock_3	33	n/a	n/a	8
233.216	n/a	116608	dot_no1_ON	11	n/a	n/a	8
233.796	n/a	116898	dot_no1_OFF	21	n/a	n/a	8
235.116	n/a	117558	dot_no6_ON	16	n/a	n/a	8
235.696	n/a	117848	dot_no6_OFF	26	n/a	n/a	8
237.016	n/a	118508	dot_no4_ON	14	n/a	n/a	8
237.596	n/a	118798	dot_no4_OFF	24	n/a	n/a	8
238.936	n/a	119468	dot_no2_ON	12	n/a	n/a	8
239.516	n/a	119758	dot_no2_OFF	22	n/a	n/a	8
240.836	n/a	120418	dot_no7_ON	17	n/a	n/a	8
241.418	n/a	120709	dot_no7_OFF	27	n/a	n/a	8
242.736	n/a	121368	dot_no3_ON	13	n/a	n/a	8
243.326	n/a	121663	dot_no3_OFF	23	n/a	n/a	8
244.646	n/a	122323	dot_no8_ON	18	n/a	n/a	8
245.226	n/a	122613	dot_no8_OFF	28	n/a	n/a	8
246.546	n/a	123273	dot_no5_ON	15	n/a	n/a	8
247.126	n/a	123563	dot_no5_OFF	25	n/a	n/a	8
248.446	n/a	124223	dot_no2_ON	12	n/a	n/a	8
249.038	n/a	124519	dot_no2_OFF	22	n/a	n/a	8
250.358	n/a	125179	dot_no7_ON	17	n/a	n/a	8
250.938	n/a	125469	dot_no7_OFF	27	1-7-3-6-2-5-8-3-7-4	1-6-4-2-7-3-8-5-2-7	8
290.612	n/a	145306	learningBlock_4	34	n/a	n/a	8
290.618	n/a	145309	dot_no1_ON	11	n/a	n/a	8
291.198	n/a	145599	dot_no1_OFF	21	n/a	n/a	8
292.518	n/a	146259	dot_no6_ON	16	n/a	n/a	8
293.098	n/a	146549	dot_no6_OFF	26	n/a	n/a	8
294.418	n/a	147209	dot_no4_ON	14	n/a	n/a	8
294.998	n/a	147499	dot_no4_OFF	24	n/a	n/a	8
296.318	n/a	148159	dot_no2_ON	12	n/a	n/a	8
296.898	n/a	148449	dot_no2_OFF	22	n/a	n/a	8
298.218	n/a	149109	dot_no7_ON	17	n/a	n/a	8
298.798	n/a	149399	dot_no7_OFF	27	n/a	n/a	8
300.118	n/a	150059	dot_no3_ON	13	n/a	n/a	8
300.698	n/a	150349	dot_no3_OFF	23	n/a	n/a	8
302.018	n/a	151009	dot_no8_ON	18	n/a	n/a	8
302.598	n/a	151299	dot_no8_OFF	28	n/a	n/a	8
303.918	n/a	151959	dot_no5_ON	15	n/a	n/a	8
304.508	n/a	152254	dot_no5_OFF	25	n/a	n/a	8
305.828	n/a	152914	dot_no2_ON	12	n/a	n/a	8
306.418	n/a	153209	dot_no2_OFF	22	n/a	n/a	8
307.738	n/a	153869	dot_no7_ON	17	n/a	n/a	8
308.318	n/a	154159	dot_no7_OFF	27	1-7-5-2-6-8-4-3-6-1	1-6-4-2-7-3-8-5-2-7	8
338.442	n/a	169221	learningBlock_5	35	n/a	n/a	8
338.448	n/a	169224	dot_no1_ON	11	n/a	n/a	8
339.03	n/a	169515	dot_no1_OFF	21	n/a	n/a	8
340.35	n/a	170175	dot_no6_ON	16	n/a	n/a	8
340.93	n/a	170465	dot_no6_OFF	26	n/a	n/a	8
342.25	n/a	171125	dot_no4_ON	14	n/a	n/a	8
342.83	n/a	171415	dot_no4_OFF	24	n/a	n/a	8
344.15	n/a	172075	dot_no2_ON	12	n/a	n/a	8
344.74	n/a	172370	dot_no2_OFF	22	n/a	n/a	8
346.06	n/a	173030	dot_no7_ON	17	n/a	n/a	8
346.64	n/a	173320	dot_no7_OFF	27	n/a	n/a	8
347.96	n/a	173980	dot_no3_ON	13	n/a	n/a	8
348.54	n/a	174270	dot_no3_OFF	23	n/a	n/a	8
349.86	n/a	174930	dot_no8_ON	18	n/a	n/a	8
350.45	n/a	175225	dot_no8_OFF	28	n/a	n/a	8
351.77	n/a	175885	dot_no5_ON	15	n/a	n/a	8
352.35	n/a	176175	dot_no5_OFF	25	n/a	n/a	8
353.67	n/a	176835	dot_no2_ON	12	n/a	n/a	8
354.25	n/a	177125	dot_no2_OFF	22	n/a	n/a	8
355.57	n/a	177785	dot_no7_ON	17	n/a	n/a	8
356.16	n/a	178080	dot_no7_OFF	27	1-6-2-5-8-7-3-1-4-7	1-6-4-2-7-3-8-5-2-7	8
382.162	n/a	191081	seqLearning_stop	50	n/a	n/a	8
383.409	n/a	191704.5	boundary	boundary	n/a	n/a	8
