onset	duration	sample	value	event_code	user_answer	correct_answer	target_count
0	n/a	0	break cnt	break cnt	n/a	n/a	8
165.116	n/a	82558	seqLearning_start	91	n/a	n/a	8
174.464	n/a	87232	learningBlock_1	31	n/a	n/a	8
174.482	n/a	87241	dot_no1_ON	11	n/a	n/a	8
175.07	n/a	87535	dot_no1_OFF	21	n/a	n/a	8
176.39	n/a	88195	dot_no6_ON	16	n/a	n/a	8
176.98	n/a	88490	dot_no6_OFF	26	n/a	n/a	8
178.3	n/a	89150	dot_no4_ON	14	n/a	n/a	8
178.89	n/a	89445	dot_no4_OFF	24	n/a	n/a	8
180.212	n/a	90106	dot_no2_ON	12	n/a	n/a	8
180.8	n/a	90400	dot_no2_OFF	22	n/a	n/a	8
182.12	n/a	91060	dot_no7_ON	17	n/a	n/a	8
182.71	n/a	91355	dot_no7_OFF	27	n/a	n/a	8
184.03	n/a	92015	dot_no3_ON	13	n/a	n/a	8
184.62	n/a	92310	dot_no3_OFF	23	n/a	n/a	8
185.942	n/a	92971	dot_no8_ON	18	n/a	n/a	8
186.53	n/a	93265	dot_no8_OFF	28	n/a	n/a	8
187.85	n/a	93925	dot_no5_ON	15	n/a	n/a	8
188.44	n/a	94220	dot_no5_OFF	25	n/a	n/a	8
189.762	n/a	94881	dot_no2_ON	12	n/a	n/a	8
190.35	n/a	95175	dot_no2_OFF	22	n/a	n/a	8
191.67	n/a	95835	dot_no7_ON	17	n/a	n/a	8
192.26	n/a	96130	dot_no7_OFF	27	1-6-5-8-3-7-4-2-7-3	1-6-4-2-7-3-8-5-2-7	8
228.312	n/a	114156	learningBlock_2	32	n/a	n/a	8
228.322	n/a	114161	dot_no1_ON	11	n/a	n/a	8
228.91	n/a	114455	dot_no1_OFF	21	n/a	n/a	8
230.232	n/a	115116	dot_no6_ON	16	n/a	n/a	8
230.82	n/a	115410	dot_no6_OFF	26	n/a	n/a	8
232.14	n/a	116070	dot_no4_ON	14	n/a	n/a	8
232.73	n/a	116365	dot_no4_OFF	24	n/a	n/a	8
234.052	n/a	117026	dot_no2_ON	12	n/a	n/a	8
234.64	n/a	117320	dot_no2_OFF	22	n/a	n/a	8
235.962	n/a	117981	dot_no7_ON	17	n/a	n/a	8
236.55	n/a	118275	dot_no7_OFF	27	n/a	n/a	8
237.872	n/a	118936	dot_no3_ON	13	n/a	n/a	8
238.46	n/a	119230	dot_no3_OFF	23	n/a	n/a	8
239.782	n/a	119891	dot_no8_ON	18	n/a	n/a	8
240.37	n/a	120185	dot_no8_OFF	28	n/a	n/a	8
241.692	n/a	120846	dot_no5_ON	15	n/a	n/a	8
242.28	n/a	121140	dot_no5_OFF	25	n/a	n/a	8
243.602	n/a	121801	dot_no2_ON	12	n/a	n/a	8
244.19	n/a	122095	dot_no2_OFF	22	n/a	n/a	8
245.512	n/a	122756	dot_no7_ON	17	n/a	n/a	8
246.1	n/a	123050	dot_no7_OFF	27	1-6-4-2-7-5-8-3-1-7	1-6-4-2-7-3-8-5-2-7	8
270.926	n/a	135463	learningBlock_3	33	n/a	n/a	8
270.942	n/a	135471	dot_no1_ON	11	n/a	n/a	8
271.53	n/a	135765	dot_no1_OFF	21	n/a	n/a	8
272.852	n/a	136426	dot_no6_ON	16	n/a	n/a	8
273.44	n/a	136720	dot_no6_OFF	26	n/a	n/a	8
274.762	n/a	137381	dot_no4_ON	14	n/a	n/a	8
275.35	n/a	137675	dot_no4_OFF	24	n/a	n/a	8
276.672	n/a	138336	dot_no2_ON	12	n/a	n/a	8
277.26	n/a	138630	dot_no2_OFF	22	n/a	n/a	8
278.582	n/a	139291	dot_no7_ON	17	n/a	n/a	8
279.17	n/a	139585	dot_no7_OFF	27	n/a	n/a	8
280.49	n/a	140245	dot_no3_ON	13	n/a	n/a	8
281.08	n/a	140540	dot_no3_OFF	23	n/a	n/a	8
282.402	n/a	141201	dot_no8_ON	18	n/a	n/a	8
282.99	n/a	141495	dot_no8_OFF	28	n/a	n/a	8
284.312	n/a	142156	dot_no5_ON	15	n/a	n/a	8
284.9	n/a	142450	dot_no5_OFF	25	n/a	n/a	8
286.222	n/a	143111	dot_no2_ON	12	n/a	n/a	8
286.81	n/a	143405	dot_no2_OFF	22	n/a	n/a	8
288.132	n/a	144066	dot_no7_ON	17	n/a	n/a	8
288.72	n/a	144360	dot_no7_OFF	27	1-6-4-2-7-5-3-8-2-7	1-6-4-2-7-3-8-5-2-7	8
308.382	n/a	154191	learningBlock_4	34	n/a	n/a	8
308.39	n/a	154195	dot_no1_ON	11	n/a	n/a	8
308.98	n/a	154490	dot_no1_OFF	21	n/a	n/a	8
310.302	n/a	155151	dot_no6_ON	16	n/a	n/a	8
310.89	n/a	155445	dot_no6_OFF	26	n/a	n/a	8
312.212	n/a	156106	dot_no4_ON	14	n/a	n/a	8
312.8	n/a	156400	dot_no4_OFF	24	n/a	n/a	8
314.122	n/a	157061	dot_no2_ON	12	n/a	n/a	8
314.71	n/a	157355	dot_no2_OFF	22	n/a	n/a	8
316.032	n/a	158016	dot_no7_ON	17	n/a	n/a	8
316.62	n/a	158310	dot_no7_OFF	27	n/a	n/a	8
317.942	n/a	158971	dot_no3_ON	13	n/a	n/a	8
318.53	n/a	159265	dot_no3_OFF	23	n/a	n/a	8
319.852	n/a	159926	dot_no8_ON	18	n/a	n/a	8
320.44	n/a	160220	dot_no8_OFF	28	n/a	n/a	8
321.762	n/a	160881	dot_no5_ON	15	n/a	n/a	8
322.35	n/a	161175	dot_no5_OFF	25	n/a	n/a	8
323.672	n/a	161836	dot_no2_ON	12	n/a	n/a	8
324.26	n/a	162130	dot_no2_OFF	22	n/a	n/a	8
325.58	n/a	162790	dot_no7_ON	17	n/a	n/a	8
326.17	n/a	163085	dot_no7_OFF	27	1-6-4-2-8-5-3-7-2-7	1-6-4-2-7-3-8-5-2-7	8
347.748	n/a	173874	learningBlock_5	35	n/a	n/a	8
347.762	n/a	173881	dot_no1_ON	11	n/a	n/a	8
348.35	n/a	174175	dot_no1_OFF	21	n/a	n/a	8
349.672	n/a	174836	dot_no6_ON	16	n/a	n/a	8
350.26	n/a	175130	dot_no6_OFF	26	n/a	n/a	8
351.582	n/a	175791	dot_no4_ON	14	n/a	n/a	8
352.17	n/a	176085	dot_no4_OFF	24	n/a	n/a	8
353.492	n/a	176746	dot_no2_ON	12	n/a	n/a	8
354.08	n/a	177040	dot_no2_OFF	22	n/a	n/a	8
355.402	n/a	177701	dot_no7_ON	17	n/a	n/a	8
355.99	n/a	177995	dot_no7_OFF	27	n/a	n/a	8
357.312	n/a	178656	dot_no3_ON	13	n/a	n/a	8
357.902	n/a	178951	dot_no3_OFF	23	n/a	n/a	8
359.222	n/a	179611	dot_no8_ON	18	n/a	n/a	8
359.81	n/a	179905	dot_no8_OFF	28	n/a	n/a	8
361.132	n/a	180566	dot_no5_ON	15	n/a	n/a	8
361.72	n/a	180860	dot_no5_OFF	25	n/a	n/a	8
363.042	n/a	181521	dot_no2_ON	12	n/a	n/a	8
363.632	n/a	181816	dot_no2_OFF	22	n/a	n/a	8
364.952	n/a	182476	dot_no7_ON	17	n/a	n/a	8
365.54	n/a	182770	dot_no7_OFF	27	1-6-4-2-8-5-3-7-2-7	1-6-4-2-7-3-8-5-2-7	8
381.296	n/a	190648	seqLearning_stop	50	n/a	n/a	8
382.007	n/a	191003.5	boundary	boundary	n/a	n/a	8
