onset	duration	sample	value	event_code	user_answer	correct_answer
0	n/a	0	break cnt	break cnt	n/a	n/a
40.468	n/a	20234	symbolSearch_start	92	n/a	n/a
46.382	n/a	23191	newPage	20	n/a	n/a
51.824	n/a	25912	trialResponse	14	0	0
54.916	n/a	27458	trialResponse	14	1	1
59.012	n/a	29506	trialResponse	14	0	0
65.316	n/a	32658	trialResponse	14	0	0
71.116	n/a	35558	trialResponse	14	0	0
73.124	n/a	36562	trialResponse	14	1	1
76.756	n/a	38378	trialResponse	14	0	0
81.396	n/a	40698	trialResponse	14	1	1
85.556	n/a	42778	trialResponse	14	0	0
89.38	n/a	44690	trialResponse	14	0	0
93.508	n/a	46754	trialResponse	14	0	0
96.764	n/a	48382	trialResponse	14	1	1
99.324	n/a	49662	trialResponse	14	0	0
101.196	n/a	50598	trialResponse	14	1	1
103.436	n/a	51718	trialResponse	14	1	1
114.702	n/a	57351	newPage	20	n/a	n/a
117.676	n/a	58838	trialResponse	14	1	1
119.788	n/a	59894	trialResponse	14	1	1
124.308	n/a	62154	trialResponse	14	0	0
125.858	n/a	62929	trialResponse	14	1	1
131.508	n/a	65754	trialResponse	14	0	0
134.452	n/a	67226	trialResponse	14	1	1
139.468	n/a	69734	trialResponse	14	0	0
142.364	n/a	71182	trialResponse	14	1	1
144.026	n/a	72013	trialResponse	14	1	1
146.732	n/a	73366	trialResponse	14	0	0
149.188	n/a	74594	trialResponse	14	1	1
152.86	n/a	76430	trialResponse	14	0	0
156.124	n/a	78062	trialResponse	14	1	1
157.844	n/a	78922	trialResponse	14	1	1
160.508	n/a	80254	trialResponse	14	0	0
161.316	n/a	80658	newPage	20	n/a	n/a
165.666	n/a	82833	trialResponse	14	0	0
169.172	n/a	84586	trialResponse	14	1	1
169.19	n/a	84595	newPage	20	n/a	n/a
171.899	n/a	85949.5	boundary	boundary	n/a	n/a
