onset	duration	sample	value	event_code	user_answer	correct_answer	target_count
0	n/a	0	break cnt	break cnt	n/a	n/a	8
29.682	n/a	14841	seqLearning_start	91	n/a	n/a	8
35.948	n/a	17974	learningBlock_1	31	n/a	n/a	8
35.984	n/a	17992	dot_no1_ON	11	n/a	n/a	8
36.574	n/a	18287	dot_no1_OFF	21	n/a	n/a	8
37.892	n/a	18946	dot_no6_ON	16	n/a	n/a	8
38.472	n/a	19236	dot_no6_OFF	26	n/a	n/a	8
39.792	n/a	19896	dot_no4_ON	14	n/a	n/a	8
40.372	n/a	20186	dot_no4_OFF	24	n/a	n/a	8
41.692	n/a	20846	dot_no2_ON	12	n/a	n/a	8
42.272	n/a	21136	dot_no2_OFF	22	n/a	n/a	8
43.592	n/a	21796	dot_no7_ON	17	n/a	n/a	8
44.172	n/a	22086	dot_no7_OFF	27	n/a	n/a	8
45.492	n/a	22746	dot_no3_ON	13	n/a	n/a	8
46.072	n/a	23036	dot_no3_OFF	23	n/a	n/a	8
47.392	n/a	23696	dot_no8_ON	18	n/a	n/a	8
47.972	n/a	23986	dot_no8_OFF	28	n/a	n/a	8
49.294	n/a	24647	dot_no5_ON	15	n/a	n/a	8
49.882	n/a	24941	dot_no5_OFF	25	n/a	n/a	8
51.204	n/a	25602	dot_no2_ON	12	n/a	n/a	8
51.792	n/a	25896	dot_no2_OFF	22	n/a	n/a	8
53.112	n/a	26556	dot_no7_ON	17	n/a	n/a	8
53.704	n/a	26852	dot_no7_OFF	27	1-6-4-7-3-8-5-2-6-2	1-6-4-2-7-3-8-5-2-7	8
97.916	n/a	48958	learningBlock_2	32	n/a	n/a	8
97.924	n/a	48962	dot_no1_ON	11	n/a	n/a	8
98.514	n/a	49257	dot_no1_OFF	21	n/a	n/a	8
99.834	n/a	49917	dot_no6_ON	16	n/a	n/a	8
100.414	n/a	50207	dot_no6_OFF	26	n/a	n/a	8
101.734	n/a	50867	dot_no4_ON	14	n/a	n/a	8
102.314	n/a	51157	dot_no4_OFF	24	n/a	n/a	8
103.634	n/a	51817	dot_no2_ON	12	n/a	n/a	8
104.214	n/a	52107	dot_no2_OFF	22	n/a	n/a	8
105.534	n/a	52767	dot_no7_ON	17	n/a	n/a	8
106.114	n/a	53057	dot_no7_OFF	27	n/a	n/a	8
107.434	n/a	53717	dot_no3_ON	13	n/a	n/a	8
108.014	n/a	54007	dot_no3_OFF	23	n/a	n/a	8
109.334	n/a	54667	dot_no8_ON	18	n/a	n/a	8
109.914	n/a	54957	dot_no8_OFF	28	n/a	n/a	8
111.234	n/a	55617	dot_no5_ON	15	n/a	n/a	8
111.814	n/a	55907	dot_no5_OFF	25	n/a	n/a	8
113.134	n/a	56567	dot_no2_ON	12	n/a	n/a	8
113.714	n/a	56857	dot_no2_OFF	22	n/a	n/a	8
115.034	n/a	57517	dot_no7_ON	17	n/a	n/a	8
115.614	n/a	57807	dot_no7_OFF	27	1-6-4-2-7-3-8-5-2-1	1-6-4-2-7-3-8-5-2-7	8
146.918	n/a	73459	learningBlock_3	33	n/a	n/a	8
146.924	n/a	73462	dot_no1_ON	11	n/a	n/a	8
147.504	n/a	73752	dot_no1_OFF	21	n/a	n/a	8
148.824	n/a	74412	dot_no6_ON	16	n/a	n/a	8
149.404	n/a	74702	dot_no6_OFF	26	n/a	n/a	8
150.724	n/a	75362	dot_no4_ON	14	n/a	n/a	8
151.304	n/a	75652	dot_no4_OFF	24	n/a	n/a	8
152.626	n/a	76313	dot_no2_ON	12	n/a	n/a	8
153.204	n/a	76602	dot_no2_OFF	22	n/a	n/a	8
154.526	n/a	77263	dot_no7_ON	17	n/a	n/a	8
155.104	n/a	77552	dot_no7_OFF	27	n/a	n/a	8
156.424	n/a	78212	dot_no3_ON	13	n/a	n/a	8
157.006	n/a	78503	dot_no3_OFF	23	n/a	n/a	8
158.326	n/a	79163	dot_no8_ON	18	n/a	n/a	8
158.906	n/a	79453	dot_no8_OFF	28	n/a	n/a	8
160.226	n/a	80113	dot_no5_ON	15	n/a	n/a	8
160.806	n/a	80403	dot_no5_OFF	25	n/a	n/a	8
162.126	n/a	81063	dot_no2_ON	12	n/a	n/a	8
162.706	n/a	81353	dot_no2_OFF	22	n/a	n/a	8
164.026	n/a	82013	dot_no7_ON	17	n/a	n/a	8
164.606	n/a	82303	dot_no7_OFF	27	1-6-4-2-7-3-8-5-2-7	1-6-4-2-7-3-8-5-2-7	8
184.548	n/a	92274	learningBlock_4	34	n/a	n/a	8
184.556	n/a	92278	dot_no1_ON	11	n/a	n/a	8
185.136	n/a	92568	dot_no1_OFF	21	n/a	n/a	8
186.456	n/a	93228	dot_no6_ON	16	n/a	n/a	8
187.036	n/a	93518	dot_no6_OFF	26	n/a	n/a	8
188.356	n/a	94178	dot_no4_ON	14	n/a	n/a	8
188.936	n/a	94468	dot_no4_OFF	24	n/a	n/a	8
190.256	n/a	95128	dot_no2_ON	12	n/a	n/a	8
190.836	n/a	95418	dot_no2_OFF	22	n/a	n/a	8
192.156	n/a	96078	dot_no7_ON	17	n/a	n/a	8
192.746	n/a	96373	dot_no7_OFF	27	n/a	n/a	8
194.066	n/a	97033	dot_no3_ON	13	n/a	n/a	8
194.646	n/a	97323	dot_no3_OFF	23	n/a	n/a	8
195.966	n/a	97983	dot_no8_ON	18	n/a	n/a	8
196.546	n/a	98273	dot_no8_OFF	28	n/a	n/a	8
197.876	n/a	98938	dot_no5_ON	15	n/a	n/a	8
198.456	n/a	99228	dot_no5_OFF	25	n/a	n/a	8
199.776	n/a	99888	dot_no2_ON	12	n/a	n/a	8
200.356	n/a	100178	dot_no2_OFF	22	n/a	n/a	8
201.676	n/a	100838	dot_no7_ON	17	n/a	n/a	8
202.256	n/a	101128	dot_no7_OFF	27	1-6-4-2-7-3-8-5-2-7	1-6-4-2-7-3-8-5-2-7	8
230.99	n/a	115495	learningBlock_5	35	n/a	n/a	8
230.996	n/a	115498	dot_no1_ON	11	n/a	n/a	8
231.576	n/a	115788	dot_no1_OFF	21	n/a	n/a	8
232.896	n/a	116448	dot_no6_ON	16	n/a	n/a	8
233.476	n/a	116738	dot_no6_OFF	26	n/a	n/a	8
234.796	n/a	117398	dot_no4_ON	14	n/a	n/a	8
235.376	n/a	117688	dot_no4_OFF	24	n/a	n/a	8
236.696	n/a	118348	dot_no2_ON	12	n/a	n/a	8
237.276	n/a	118638	dot_no2_OFF	22	n/a	n/a	8
238.596	n/a	119298	dot_no7_ON	17	n/a	n/a	8
239.176	n/a	119588	dot_no7_OFF	27	n/a	n/a	8
240.496	n/a	120248	dot_no3_ON	13	n/a	n/a	8
241.076	n/a	120538	dot_no3_OFF	23	n/a	n/a	8
242.396	n/a	121198	dot_no8_ON	18	n/a	n/a	8
242.976	n/a	121488	dot_no8_OFF	28	n/a	n/a	8
244.298	n/a	122149	dot_no5_ON	15	n/a	n/a	8
244.876	n/a	122438	dot_no5_OFF	25	n/a	n/a	8
246.198	n/a	123099	dot_no2_ON	12	n/a	n/a	8
246.776	n/a	123388	dot_no2_OFF	22	n/a	n/a	8
248.096	n/a	124048	dot_no7_ON	17	n/a	n/a	8
248.688	n/a	124344	dot_no7_OFF	27	1-6-4-2-7-3-8-5-2-7	1-6-4-2-7-3-8-5-2-7	8
262.78	n/a	131390	seqLearning_stop	50	n/a	n/a	8
264.269	n/a	132134.5	boundary	boundary	n/a	n/a	8
