onset	duration	sample	value	event_code	user_answer	correct_answer	target_count
0	n/a	0	break cnt	break cnt	n/a	n/a	6
142.728	n/a	71364	seqLearning_start	91	n/a	n/a	6
152.052	n/a	76026	learningBlock_1	31	n/a	n/a	6
152.098	n/a	76049	dot_no1_ON	11	n/a	n/a	6
152.688	n/a	76344	dot_no1_OFF	21	n/a	n/a	6
154.008	n/a	77004	dot_no6_ON	16	n/a	n/a	6
154.598	n/a	77299	dot_no6_OFF	26	n/a	n/a	6
155.918	n/a	77959	dot_no4_ON	14	n/a	n/a	6
156.506	n/a	78253	dot_no4_OFF	24	n/a	n/a	6
157.828	n/a	78914	dot_no2_ON	12	n/a	n/a	6
158.416	n/a	79208	dot_no2_OFF	22	n/a	n/a	6
159.738	n/a	79869	dot_no3_ON	13	n/a	n/a	6
160.328	n/a	80164	dot_no3_OFF	23	n/a	n/a	6
161.648	n/a	80824	dot_no5_ON	15	n/a	n/a	6
162.236	n/a	81118	dot_no5_OFF	25	n/a	n/a	6
163.558	n/a	81779	dot_no2_ON	12	n/a	n/a	6
164.146	n/a	82073	dot_no2_OFF	22	1-4-2-3-5-6-2	1-6-4-2-3-5-2	6
188.962	n/a	94481	learningBlock_2	32	n/a	n/a	6
188.978	n/a	94489	dot_no1_ON	11	n/a	n/a	6
189.568	n/a	94784	dot_no1_OFF	21	n/a	n/a	6
190.888	n/a	95444	dot_no6_ON	16	n/a	n/a	6
191.478	n/a	95739	dot_no6_OFF	26	n/a	n/a	6
192.798	n/a	96399	dot_no4_ON	14	n/a	n/a	6
193.386	n/a	96693	dot_no4_OFF	24	n/a	n/a	6
194.708	n/a	97354	dot_no2_ON	12	n/a	n/a	6
195.298	n/a	97649	dot_no2_OFF	22	n/a	n/a	6
196.618	n/a	98309	dot_no3_ON	13	n/a	n/a	6
197.206	n/a	98603	dot_no3_OFF	23	n/a	n/a	6
198.528	n/a	99264	dot_no5_ON	15	n/a	n/a	6
199.116	n/a	99558	dot_no5_OFF	25	n/a	n/a	6
200.438	n/a	100219	dot_no2_ON	12	n/a	n/a	6
201.028	n/a	100514	dot_no2_OFF	22	1-2-3-4-5-3-6	1-6-4-2-3-5-2	6
226.978	n/a	113489	learningBlock_3	33	n/a	n/a	6
226.988	n/a	113494	dot_no1_ON	11	n/a	n/a	6
227.576	n/a	113788	dot_no1_OFF	21	n/a	n/a	6
228.898	n/a	114449	dot_no6_ON	16	n/a	n/a	6
229.488	n/a	114744	dot_no6_OFF	26	n/a	n/a	6
230.81	n/a	115405	dot_no4_ON	14	n/a	n/a	6
231.396	n/a	115698	dot_no4_OFF	24	n/a	n/a	6
232.718	n/a	116359	dot_no2_ON	12	n/a	n/a	6
233.306	n/a	116653	dot_no2_OFF	22	n/a	n/a	6
234.628	n/a	117314	dot_no3_ON	13	n/a	n/a	6
235.218	n/a	117609	dot_no3_OFF	23	n/a	n/a	6
236.538	n/a	118269	dot_no5_ON	15	n/a	n/a	6
237.128	n/a	118564	dot_no5_OFF	25	n/a	n/a	6
238.448	n/a	119224	dot_no2_ON	12	n/a	n/a	6
239.036	n/a	119518	dot_no2_OFF	22	1-2-5-3-6-4-3	1-6-4-2-3-5-2	6
266.69	n/a	133345	learningBlock_4	34	n/a	n/a	6
266.698	n/a	133349	dot_no1_ON	11	n/a	n/a	6
267.288	n/a	133644	dot_no1_OFF	21	n/a	n/a	6
268.608	n/a	134304	dot_no6_ON	16	n/a	n/a	6
269.198	n/a	134599	dot_no6_OFF	26	n/a	n/a	6
270.518	n/a	135259	dot_no4_ON	14	n/a	n/a	6
271.108	n/a	135554	dot_no4_OFF	24	n/a	n/a	6
272.428	n/a	136214	dot_no2_ON	12	n/a	n/a	6
273.018	n/a	136509	dot_no2_OFF	22	n/a	n/a	6
274.338	n/a	137169	dot_no3_ON	13	n/a	n/a	6
274.928	n/a	137464	dot_no3_OFF	23	n/a	n/a	6
276.248	n/a	138124	dot_no5_ON	15	n/a	n/a	6
276.838	n/a	138419	dot_no5_OFF	25	n/a	n/a	6
278.158	n/a	139079	dot_no2_ON	12	n/a	n/a	6
278.748	n/a	139374	dot_no2_OFF	22	1-2-4-3-5-3-5	1-6-4-2-3-5-2	6
304.762	n/a	152381	learningBlock_5	35	n/a	n/a	6
304.778	n/a	152389	dot_no1_ON	11	n/a	n/a	6
305.368	n/a	152684	dot_no1_OFF	21	n/a	n/a	6
306.688	n/a	153344	dot_no6_ON	16	n/a	n/a	6
307.278	n/a	153639	dot_no6_OFF	26	n/a	n/a	6
308.598	n/a	154299	dot_no4_ON	14	n/a	n/a	6
309.188	n/a	154594	dot_no4_OFF	24	n/a	n/a	6
310.508	n/a	155254	dot_no2_ON	12	n/a	n/a	6
311.098	n/a	155549	dot_no2_OFF	22	n/a	n/a	6
312.418	n/a	156209	dot_no3_ON	13	n/a	n/a	6
313.008	n/a	156504	dot_no3_OFF	23	n/a	n/a	6
314.328	n/a	157164	dot_no5_ON	15	n/a	n/a	6
314.918	n/a	157459	dot_no5_OFF	25	n/a	n/a	6
316.238	n/a	158119	dot_no2_ON	12	n/a	n/a	6
316.828	n/a	158414	dot_no2_OFF	22	1-6-4-2-3-5-3	1-6-4-2-3-5-2	6
332.388	n/a	166194	seqLearning_stop	50	n/a	n/a	6
333.06	n/a	166530	break cnt	break cnt	n/a	n/a	6
364.792	n/a	182396	9999	9999	n/a	n/a	6
371.702	n/a	185851	video_start	83	n/a	n/a	6
442.648	n/a	221324	9999	9999	n/a	n/a	6
