onset	duration	sample	value	event_code	user_answer	correct_answer	target_count
0	n/a	0	break cnt	break cnt	n/a	n/a	8
30.442	n/a	15221	seqLearning_start	91	n/a	n/a	8
36.718	n/a	18359	learningBlock_1	31	n/a	n/a	8
36.748	n/a	18374	dot_no1_ON	11	n/a	n/a	8
37.336	n/a	18668	dot_no1_OFF	21	n/a	n/a	8
38.656	n/a	19328	dot_no6_ON	16	n/a	n/a	8
39.236	n/a	19618	dot_no6_OFF	26	n/a	n/a	8
40.556	n/a	20278	dot_no4_ON	14	n/a	n/a	8
41.136	n/a	20568	dot_no4_OFF	24	n/a	n/a	8
42.456	n/a	21228	dot_no2_ON	12	n/a	n/a	8
43.036	n/a	21518	dot_no2_OFF	22	n/a	n/a	8
44.356	n/a	22178	dot_no7_ON	17	n/a	n/a	8
44.936	n/a	22468	dot_no7_OFF	27	n/a	n/a	8
46.256	n/a	23128	dot_no3_ON	13	n/a	n/a	8
46.846	n/a	23423	dot_no3_OFF	23	n/a	n/a	8
48.176	n/a	24088	dot_no8_ON	18	n/a	n/a	8
48.756	n/a	24378	dot_no8_OFF	28	n/a	n/a	8
50.076	n/a	25038	dot_no5_ON	15	n/a	n/a	8
50.656	n/a	25328	dot_no5_OFF	25	n/a	n/a	8
51.976	n/a	25988	dot_no2_ON	12	n/a	n/a	8
52.566	n/a	26283	dot_no2_OFF	22	n/a	n/a	8
53.886	n/a	26943	dot_no7_ON	17	n/a	n/a	8
54.466	n/a	27233	dot_no7_OFF	27	1-6-4-2-7-3-8-2-5-7	1-6-4-2-7-3-8-5-2-7	8
90.578	n/a	45289	learningBlock_2	32	n/a	n/a	8
90.584	n/a	45292	dot_no1_ON	11	n/a	n/a	8
91.166	n/a	45583	dot_no1_OFF	21	n/a	n/a	8
92.486	n/a	46243	dot_no6_ON	16	n/a	n/a	8
93.066	n/a	46533	dot_no6_OFF	26	n/a	n/a	8
94.384	n/a	47192	dot_no4_ON	14	n/a	n/a	8
94.964	n/a	47482	dot_no4_OFF	24	n/a	n/a	8
96.286	n/a	48143	dot_no2_ON	12	n/a	n/a	8
96.864	n/a	48432	dot_no2_OFF	22	n/a	n/a	8
98.186	n/a	49093	dot_no7_ON	17	n/a	n/a	8
98.764	n/a	49382	dot_no7_OFF	27	n/a	n/a	8
100.084	n/a	50042	dot_no3_ON	13	n/a	n/a	8
100.664	n/a	50332	dot_no3_OFF	23	n/a	n/a	8
101.984	n/a	50992	dot_no8_ON	18	n/a	n/a	8
102.564	n/a	51282	dot_no8_OFF	28	n/a	n/a	8
103.884	n/a	51942	dot_no5_ON	15	n/a	n/a	8
104.464	n/a	52232	dot_no5_OFF	25	n/a	n/a	8
105.786	n/a	52893	dot_no2_ON	12	n/a	n/a	8
106.364	n/a	53182	dot_no2_OFF	22	n/a	n/a	8
107.684	n/a	53842	dot_no7_ON	17	n/a	n/a	8
108.264	n/a	54132	dot_no7_OFF	27	1-6-4-2-7-3-8-5-2-7	1-6-4-2-7-3-8-5-2-7	8
127.526	n/a	63763	learningBlock_3	33	n/a	n/a	8
127.534	n/a	63767	dot_no1_ON	11	n/a	n/a	8
128.114	n/a	64057	dot_no1_OFF	21	n/a	n/a	8
129.434	n/a	64717	dot_no6_ON	16	n/a	n/a	8
130.014	n/a	65007	dot_no6_OFF	26	n/a	n/a	8
131.334	n/a	65667	dot_no4_ON	14	n/a	n/a	8
131.914	n/a	65957	dot_no4_OFF	24	n/a	n/a	8
133.234	n/a	66617	dot_no2_ON	12	n/a	n/a	8
133.814	n/a	66907	dot_no2_OFF	22	n/a	n/a	8
135.134	n/a	67567	dot_no7_ON	17	n/a	n/a	8
135.714	n/a	67857	dot_no7_OFF	27	n/a	n/a	8
137.034	n/a	68517	dot_no3_ON	13	n/a	n/a	8
137.614	n/a	68807	dot_no3_OFF	23	n/a	n/a	8
138.936	n/a	69468	dot_no8_ON	18	n/a	n/a	8
139.514	n/a	69757	dot_no8_OFF	28	n/a	n/a	8
140.834	n/a	70417	dot_no5_ON	15	n/a	n/a	8
141.414	n/a	70707	dot_no5_OFF	25	n/a	n/a	8
142.734	n/a	71367	dot_no2_ON	12	n/a	n/a	8
143.314	n/a	71657	dot_no2_OFF	22	n/a	n/a	8
144.634	n/a	72317	dot_no7_ON	17	n/a	n/a	8
145.214	n/a	72607	dot_no7_OFF	27	1-6-4-2-7-3-8-5-2-7	1-6-4-2-7-3-8-5-2-7	8
161.026	n/a	80513	learningBlock_4	34	n/a	n/a	8
161.034	n/a	80517	dot_no1_ON	11	n/a	n/a	8
161.614	n/a	80807	dot_no1_OFF	21	n/a	n/a	8
162.934	n/a	81467	dot_no6_ON	16	n/a	n/a	8
163.514	n/a	81757	dot_no6_OFF	26	n/a	n/a	8
164.834	n/a	82417	dot_no4_ON	14	n/a	n/a	8
165.414	n/a	82707	dot_no4_OFF	24	n/a	n/a	8
166.734	n/a	83367	dot_no2_ON	12	n/a	n/a	8
167.324	n/a	83662	dot_no2_OFF	22	n/a	n/a	8
168.644	n/a	84322	dot_no7_ON	17	n/a	n/a	8
169.226	n/a	84613	dot_no7_OFF	27	n/a	n/a	8
170.544	n/a	85272	dot_no3_ON	13	n/a	n/a	8
171.124	n/a	85562	dot_no3_OFF	23	n/a	n/a	8
172.444	n/a	86222	dot_no8_ON	18	n/a	n/a	8
173.024	n/a	86512	dot_no8_OFF	28	n/a	n/a	8
174.344	n/a	87172	dot_no5_ON	15	n/a	n/a	8
174.934	n/a	87467	dot_no5_OFF	25	n/a	n/a	8
176.254	n/a	88127	dot_no2_ON	12	n/a	n/a	8
176.834	n/a	88417	dot_no2_OFF	22	n/a	n/a	8
178.164	n/a	89082	dot_no7_ON	17	n/a	n/a	8
178.754	n/a	89377	dot_no7_OFF	27	1-6-4-2-7-3-8-5-2-7	1-6-4-2-7-3-8-5-2-7	8
195.736	n/a	97868	learningBlock_5	35	n/a	n/a	8
195.744	n/a	97872	dot_no1_ON	11	n/a	n/a	8
196.324	n/a	98162	dot_no1_OFF	21	n/a	n/a	8
197.644	n/a	98822	dot_no6_ON	16	n/a	n/a	8
198.224	n/a	99112	dot_no6_OFF	26	n/a	n/a	8
199.544	n/a	99772	dot_no4_ON	14	n/a	n/a	8
200.134	n/a	100067	dot_no4_OFF	24	n/a	n/a	8
201.454	n/a	100727	dot_no2_ON	12	n/a	n/a	8
202.034	n/a	101017	dot_no2_OFF	22	n/a	n/a	8
203.354	n/a	101677	dot_no7_ON	17	n/a	n/a	8
203.934	n/a	101967	dot_no7_OFF	27	n/a	n/a	8
205.254	n/a	102627	dot_no3_ON	13	n/a	n/a	8
205.834	n/a	102917	dot_no3_OFF	23	n/a	n/a	8
207.154	n/a	103577	dot_no8_ON	18	n/a	n/a	8
207.734	n/a	103867	dot_no8_OFF	28	n/a	n/a	8
209.054	n/a	104527	dot_no5_ON	15	n/a	n/a	8
209.634	n/a	104817	dot_no5_OFF	25	n/a	n/a	8
210.954	n/a	105477	dot_no2_ON	12	n/a	n/a	8
211.544	n/a	105772	dot_no2_OFF	22	n/a	n/a	8
212.864	n/a	106432	dot_no7_ON	17	n/a	n/a	8
213.454	n/a	106727	dot_no7_OFF	27	1-6-4-2-7-3-8-5-2-7	1-6-4-2-7-3-8-5-2-7	8
231.736	n/a	115868	seqLearning_stop	50	n/a	n/a	8
233.125	n/a	116562.5	boundary	boundary	n/a	n/a	8
