onset	duration	sample	value	event_code	user_answer	correct_answer	target_count
0	n/a	0	break cnt	break cnt	n/a	n/a	8
76.104	n/a	38052	seqLearning_start	91	n/a	n/a	8
85.44	n/a	42720	learningBlock_1	31	n/a	n/a	8
85.458	n/a	42729	dot_no1_ON	11	n/a	n/a	8
86.046	n/a	43023	dot_no1_OFF	21	n/a	n/a	8
87.368	n/a	43684	dot_no6_ON	16	n/a	n/a	8
87.956	n/a	43978	dot_no6_OFF	26	n/a	n/a	8
89.278	n/a	44639	dot_no4_ON	14	n/a	n/a	8
89.866	n/a	44933	dot_no4_OFF	24	n/a	n/a	8
91.188	n/a	45594	dot_no2_ON	12	n/a	n/a	8
91.776	n/a	45888	dot_no2_OFF	22	n/a	n/a	8
93.098	n/a	46549	dot_no7_ON	17	n/a	n/a	8
93.686	n/a	46843	dot_no7_OFF	27	n/a	n/a	8
95.008	n/a	47504	dot_no3_ON	13	n/a	n/a	8
95.598	n/a	47799	dot_no3_OFF	23	n/a	n/a	8
96.918	n/a	48459	dot_no8_ON	18	n/a	n/a	8
97.508	n/a	48754	dot_no8_OFF	28	n/a	n/a	8
98.828	n/a	49414	dot_no5_ON	15	n/a	n/a	8
99.416	n/a	49708	dot_no5_OFF	25	n/a	n/a	8
100.738	n/a	50369	dot_no2_ON	12	n/a	n/a	8
101.328	n/a	50664	dot_no2_OFF	22	n/a	n/a	8
102.648	n/a	51324	dot_no7_ON	17	n/a	n/a	8
103.236	n/a	51618	dot_no7_OFF	27	1-6-3-4-2-5-8-7-5-7	1-6-4-2-7-3-8-5-2-7	8
163.664	n/a	81832	learningBlock_2	32	n/a	n/a	8
163.678	n/a	81839	dot_no1_ON	11	n/a	n/a	8
164.266	n/a	82133	dot_no1_OFF	21	n/a	n/a	8
165.588	n/a	82794	dot_no6_ON	16	n/a	n/a	8
166.176	n/a	83088	dot_no6_OFF	26	n/a	n/a	8
167.498	n/a	83749	dot_no4_ON	14	n/a	n/a	8
168.086	n/a	84043	dot_no4_OFF	24	n/a	n/a	8
169.408	n/a	84704	dot_no2_ON	12	n/a	n/a	8
169.996	n/a	84998	dot_no2_OFF	22	n/a	n/a	8
171.318	n/a	85659	dot_no7_ON	17	n/a	n/a	8
171.906	n/a	85953	dot_no7_OFF	27	n/a	n/a	8
173.228	n/a	86614	dot_no3_ON	13	n/a	n/a	8
173.816	n/a	86908	dot_no3_OFF	23	n/a	n/a	8
175.138	n/a	87569	dot_no8_ON	18	n/a	n/a	8
175.728	n/a	87864	dot_no8_OFF	28	n/a	n/a	8
177.048	n/a	88524	dot_no5_ON	15	n/a	n/a	8
177.636	n/a	88818	dot_no5_OFF	25	n/a	n/a	8
178.958	n/a	89479	dot_no2_ON	12	n/a	n/a	8
179.548	n/a	89774	dot_no2_OFF	22	n/a	n/a	8
180.868	n/a	90434	dot_no7_ON	17	n/a	n/a	8
181.456	n/a	90728	dot_no7_OFF	27	1-6-4-2-7-3-5-8-2-7	1-6-4-2-7-3-8-5-2-7	8
220.55	n/a	110275	learningBlock_3	33	n/a	n/a	8
220.558	n/a	110279	dot_no1_ON	11	n/a	n/a	8
221.148	n/a	110574	dot_no1_OFF	21	n/a	n/a	8
222.468	n/a	111234	dot_no6_ON	16	n/a	n/a	8
223.058	n/a	111529	dot_no6_OFF	26	n/a	n/a	8
224.378	n/a	112189	dot_no4_ON	14	n/a	n/a	8
224.966	n/a	112483	dot_no4_OFF	24	n/a	n/a	8
226.288	n/a	113144	dot_no2_ON	12	n/a	n/a	8
226.876	n/a	113438	dot_no2_OFF	22	n/a	n/a	8
228.198	n/a	114099	dot_no7_ON	17	n/a	n/a	8
228.786	n/a	114393	dot_no7_OFF	27	n/a	n/a	8
230.108	n/a	115054	dot_no3_ON	13	n/a	n/a	8
230.698	n/a	115349	dot_no3_OFF	23	n/a	n/a	8
232.018	n/a	116009	dot_no8_ON	18	n/a	n/a	8
232.606	n/a	116303	dot_no8_OFF	28	n/a	n/a	8
233.928	n/a	116964	dot_no5_ON	15	n/a	n/a	8
234.518	n/a	117259	dot_no5_OFF	25	n/a	n/a	8
235.838	n/a	117919	dot_no2_ON	12	n/a	n/a	8
236.426	n/a	118213	dot_no2_OFF	22	n/a	n/a	8
237.748	n/a	118874	dot_no7_ON	17	n/a	n/a	8
238.338	n/a	119169	dot_no7_OFF	27	1-6-4-2-7-8-5-3-3-7	1-6-4-2-7-3-8-5-2-7	8
267.324	n/a	133662	learningBlock_4	34	n/a	n/a	8
267.338	n/a	133669	dot_no1_ON	11	n/a	n/a	8
267.928	n/a	133964	dot_no1_OFF	21	n/a	n/a	8
269.248	n/a	134624	dot_no6_ON	16	n/a	n/a	8
269.838	n/a	134919	dot_no6_OFF	26	n/a	n/a	8
271.158	n/a	135579	dot_no4_ON	14	n/a	n/a	8
271.748	n/a	135874	dot_no4_OFF	24	n/a	n/a	8
273.068	n/a	136534	dot_no2_ON	12	n/a	n/a	8
273.658	n/a	136829	dot_no2_OFF	22	n/a	n/a	8
274.978	n/a	137489	dot_no7_ON	17	n/a	n/a	8
275.568	n/a	137784	dot_no7_OFF	27	n/a	n/a	8
276.888	n/a	138444	dot_no3_ON	13	n/a	n/a	8
277.476	n/a	138738	dot_no3_OFF	23	n/a	n/a	8
278.798	n/a	139399	dot_no8_ON	18	n/a	n/a	8
279.386	n/a	139693	dot_no8_OFF	28	n/a	n/a	8
280.708	n/a	140354	dot_no5_ON	15	n/a	n/a	8
281.298	n/a	140649	dot_no5_OFF	25	n/a	n/a	8
282.618	n/a	141309	dot_no2_ON	12	n/a	n/a	8
283.208	n/a	141604	dot_no2_OFF	22	n/a	n/a	8
284.528	n/a	142264	dot_no7_ON	17	n/a	n/a	8
285.118	n/a	142559	dot_no7_OFF	27	1-6-4-2-7-3-5-8-3-2	1-6-4-2-7-3-8-5-2-7	8
311.314	n/a	155657	learningBlock_5	35	n/a	n/a	8
311.328	n/a	155664	dot_no1_ON	11	n/a	n/a	8
311.918	n/a	155959	dot_no1_OFF	21	n/a	n/a	8
313.238	n/a	156619	dot_no6_ON	16	n/a	n/a	8
313.828	n/a	156914	dot_no6_OFF	26	n/a	n/a	8
315.148	n/a	157574	dot_no4_ON	14	n/a	n/a	8
315.738	n/a	157869	dot_no4_OFF	24	n/a	n/a	8
317.058	n/a	158529	dot_no2_ON	12	n/a	n/a	8
317.648	n/a	158824	dot_no2_OFF	22	n/a	n/a	8
318.968	n/a	159484	dot_no7_ON	17	n/a	n/a	8
319.558	n/a	159779	dot_no7_OFF	27	n/a	n/a	8
320.878	n/a	160439	dot_no3_ON	13	n/a	n/a	8
321.468	n/a	160734	dot_no3_OFF	23	n/a	n/a	8
322.788	n/a	161394	dot_no8_ON	18	n/a	n/a	8
323.378	n/a	161689	dot_no8_OFF	28	n/a	n/a	8
324.698	n/a	162349	dot_no5_ON	15	n/a	n/a	8
325.288	n/a	162644	dot_no5_OFF	25	n/a	n/a	8
326.608	n/a	163304	dot_no2_ON	12	n/a	n/a	8
327.198	n/a	163599	dot_no2_OFF	22	n/a	n/a	8
328.518	n/a	164259	dot_no7_ON	17	n/a	n/a	8
329.108	n/a	164554	dot_no7_OFF	27	1-6-4-2-7-3-8-5-7-2	1-6-4-2-7-3-8-5-2-7	8
348.244	n/a	174122	seqLearning_stop	50	n/a	n/a	8
348.953	n/a	174476.5	boundary	boundary	n/a	n/a	8
