onset	duration	sample	value	event_code	user_answer	correct_answer	target_count
0	n/a	0	break cnt	break cnt	n/a	n/a	6
30.412	n/a	15206	seqLearning_start	91	n/a	n/a	6
36.686	n/a	18343	learningBlock_1	31	n/a	n/a	6
36.716	n/a	18358	dot_no1_ON	11	n/a	n/a	6
37.304	n/a	18652	dot_no1_OFF	21	n/a	n/a	6
38.624	n/a	19312	dot_no6_ON	16	n/a	n/a	6
39.204	n/a	19602	dot_no6_OFF	26	n/a	n/a	6
40.524	n/a	20262	dot_no4_ON	14	n/a	n/a	6
41.104	n/a	20552	dot_no4_OFF	24	n/a	n/a	6
42.424	n/a	21212	dot_no2_ON	12	n/a	n/a	6
43.014	n/a	21507	dot_no2_OFF	22	n/a	n/a	6
44.334	n/a	22167	dot_no3_ON	13	n/a	n/a	6
44.914	n/a	22457	dot_no3_OFF	23	n/a	n/a	6
46.234	n/a	23117	dot_no5_ON	15	n/a	n/a	6
46.814	n/a	23407	dot_no5_OFF	25	n/a	n/a	6
48.134	n/a	24067	dot_no2_ON	12	n/a	n/a	6
48.724	n/a	24362	dot_no2_OFF	22	4-3-2-1-6-5-6	1-6-4-2-3-5-2	6
77.554	n/a	38777	learningBlock_2	32	n/a	n/a	6
77.562	n/a	38781	dot_no1_ON	11	n/a	n/a	6
78.144	n/a	39072	dot_no1_OFF	21	n/a	n/a	6
79.464	n/a	39732	dot_no6_ON	16	n/a	n/a	6
80.042	n/a	40021	dot_no6_OFF	26	n/a	n/a	6
81.362	n/a	40681	dot_no4_ON	14	n/a	n/a	6
81.944	n/a	40972	dot_no4_OFF	24	n/a	n/a	6
83.264	n/a	41632	dot_no2_ON	12	n/a	n/a	6
83.842	n/a	41921	dot_no2_OFF	22	n/a	n/a	6
85.162	n/a	42581	dot_no3_ON	13	n/a	n/a	6
85.742	n/a	42871	dot_no3_OFF	23	n/a	n/a	6
87.062	n/a	43531	dot_no5_ON	15	n/a	n/a	6
87.642	n/a	43821	dot_no5_OFF	25	n/a	n/a	6
88.962	n/a	44481	dot_no2_ON	12	n/a	n/a	6
89.552	n/a	44776	dot_no2_OFF	22	6-5-4-4-3-2-1	1-6-4-2-3-5-2	6
110.836	n/a	55418	learningBlock_3	33	n/a	n/a	6
110.842	n/a	55421	dot_no1_ON	11	n/a	n/a	6
111.422	n/a	55711	dot_no1_OFF	21	n/a	n/a	6
112.742	n/a	56371	dot_no6_ON	16	n/a	n/a	6
113.322	n/a	56661	dot_no6_OFF	26	n/a	n/a	6
114.642	n/a	57321	dot_no4_ON	14	n/a	n/a	6
115.222	n/a	57611	dot_no4_OFF	24	n/a	n/a	6
116.542	n/a	58271	dot_no2_ON	12	n/a	n/a	6
117.122	n/a	58561	dot_no2_OFF	22	n/a	n/a	6
118.442	n/a	59221	dot_no3_ON	13	n/a	n/a	6
119.022	n/a	59511	dot_no3_OFF	23	n/a	n/a	6
120.342	n/a	60171	dot_no5_ON	15	n/a	n/a	6
120.922	n/a	60461	dot_no5_OFF	25	n/a	n/a	6
122.242	n/a	61121	dot_no2_ON	12	n/a	n/a	6
122.822	n/a	61411	dot_no2_OFF	22	6-1-2-3-4-5-4	1-6-4-2-3-5-2	6
159.344	n/a	79672	learningBlock_4	34	n/a	n/a	6
159.352	n/a	79676	dot_no1_ON	11	n/a	n/a	6
159.942	n/a	79971	dot_no1_OFF	21	n/a	n/a	6
161.262	n/a	80631	dot_no6_ON	16	n/a	n/a	6
161.842	n/a	80921	dot_no6_OFF	26	n/a	n/a	6
163.162	n/a	81581	dot_no4_ON	14	n/a	n/a	6
163.742	n/a	81871	dot_no4_OFF	24	n/a	n/a	6
165.062	n/a	82531	dot_no2_ON	12	n/a	n/a	6
165.652	n/a	82826	dot_no2_OFF	22	n/a	n/a	6
166.972	n/a	83486	dot_no3_ON	13	n/a	n/a	6
167.562	n/a	83781	dot_no3_OFF	23	n/a	n/a	6
168.882	n/a	84441	dot_no5_ON	15	n/a	n/a	6
169.462	n/a	84731	dot_no5_OFF	25	n/a	n/a	6
170.782	n/a	85391	dot_no2_ON	12	n/a	n/a	6
171.362	n/a	85681	dot_no2_OFF	22	4-2-1-6-5-3-4	1-6-4-2-3-5-2	6
213.682	n/a	106841	learningBlock_5	35	n/a	n/a	6
213.69	n/a	106845	dot_no1_ON	11	n/a	n/a	6
214.28	n/a	107140	dot_no1_OFF	21	n/a	n/a	6
215.6	n/a	107800	dot_no6_ON	16	n/a	n/a	6
216.18	n/a	108090	dot_no6_OFF	26	n/a	n/a	6
217.5	n/a	108750	dot_no4_ON	14	n/a	n/a	6
218.08	n/a	109040	dot_no4_OFF	24	n/a	n/a	6
219.4	n/a	109700	dot_no2_ON	12	n/a	n/a	6
219.98	n/a	109990	dot_no2_OFF	22	n/a	n/a	6
221.3	n/a	110650	dot_no3_ON	13	n/a	n/a	6
221.88	n/a	110940	dot_no3_OFF	23	n/a	n/a	6
223.2	n/a	111600	dot_no5_ON	15	n/a	n/a	6
223.79	n/a	111895	dot_no5_OFF	25	n/a	n/a	6
225.11	n/a	112555	dot_no2_ON	12	n/a	n/a	6
225.69	n/a	112845	dot_no2_OFF	22	3-2-1-6-5-4-1	1-6-4-2-3-5-2	6
256.732	n/a	128366	seqLearning_stop	50	n/a	n/a	6
258.023	n/a	129011.5	boundary	boundary	n/a	n/a	6
